File: notebook/K309/CaF2 std.msa
#FORMAT      : EMSA/MAS Spectral Data File
#VERSION     : 1.0
#TITLE       : Bruker AXS spectrum CaF2
#DATE        : 29-JUL-2008
#TIME        : 10:19
#OWNER       : Bruker AXS
#NPOINTS     : 4096
#NCOLUMNS    : 1
#XUNITS      : eV
#YUNITS      : counts
#DATATYPE    : Y
#XPERCHAN    : 5.00409
#OFFSET      : -477.824
#BEAMKV      : 15
#SIGNALTYPE  : EDS
#ELEVANGLE   : 40
#AZIMANGLE   : 180
#LIVETIME    : 59.358
#REALTIME    : 62.941
#PROBECUR    : 2.5
#TDEADLYR    : 0.00001
#TACTLYR     : 0.045
#TALWIND     : 0.003
#CHOFFSET    : 0.0
#XLABEL      : Energy (eV)
#YLABEL      : Counts
#EDSDET      : SDDUTW
##D2STDCMP   : CaF2,(F:48.6667),(Ca:51.3333),5.0
##DET_HASH   : 787abefa-8318-6950-113a-0b12cd5d2e3f
##CALIB_HASH : 45cbf5b2-c271-a5d0-4379-a0c92e937fd3
#SPECTRUM    :
0,
0,
0,
0,
0,
0,
0,
0,
0,
0,
0,
0,
0,
0,
0,
0,
0,
0,
0,
0,
0,
0,
0,
0,
0,
0,
0,
2,
137,
3095,
25811,
83136,
99155,
46433,
8520,
287,
0,
0,
70,
93,
82,
82,
92,
114,
126,
171,
243,
375,
641,
1050,
1391,
1346,
1068,
791,
635,
528,
370,
244,
168,
154,
166,
161,
177,
182,
224,
230,
275,
328,
280,
267,
390,
497,
849,
1832,
4675,
10002,
17004,
19877,
15572,
8352,
3184,
887,
340,
230,
246,
233,
213,
241,
279,
258,
266,
313,
299,
321,
347,
351,
350,
338,
381,
400,
378,
436,
395,
417,
438,
421,
443,
449,
463,
435,
474,
426,
504,
499,
500,
445,
510,
470,
462,
489,
505,
488,
543,
507,
513,
490,
542,
486,
518,
491,
534,
518,
500,
522,
532,
498,
522,
514,
474,
470,
514,
469,
457,
508,
501,
492,
471,
497,
520,
540,
498,
508,
477,
478,
509,
466,
493,
482,
478,
402,
480,
476,
519,
443,
503,
509,
423,
462,
427,
411,
456,
476,
428,
455,
431,
448,
443,
431,
411,
440,
430,
420,
399,
430,
420,
404,
419,
416,
379,
389,
394,
372,
382,
398,
355,
366,
381,
408,
381,
382,
343,
346,
366,
377,
400,
410,
328,
381,
334,
359,
351,
390,
326,
341,
347,
311,
342,
342,
352,
323,
359,
360,
379,
311,
363,
318,
338,
331,
336,
310,
331,
362,
325,
353,
289,
313,
310,
318,
343,
301,
327,
304,
289,
297,
314,
293,
305,
330,
336,
306,
301,
296,
299,
281,
256,
276,
291,
250,
287,
287,
261,
278,
272,
313,
282,
319,
373,
374,
448,
550,
882,
1420,
2556,
4762,
7812,
11984,
16269,
20163,
21548,
20815,
17587,
13439,
8933,
5366,
2864,
1475,
751,
447,
360,
320,
329,
370,
385,
527,
725,
1055,
1431,
1977,
2423,
2725,
2720,
2481,
2150,
1579,
1090,
778,
494,
298,
248,
202,
194,
168,
165,
167,
169,
183,
173,
152,
162,
156,
174,
178,
185,
167,
185,
187,
154,
152,
142,
179,
150,
151,
175,
147,
150,
142,
155,
165,
165,
126,
145,
147,
143,
154,
140,
148,
136,
152,
131,
143,
125,
133,
138,
150,
124,
155,
132,
131,
149,
123,
155,
140,
116,
120,
138,
146,
128,
120,
107,
135,
128,
110,
118,
139,
126,
133,
131,
125,
127,
124,
119,
126,
127,
125,
109,
122,
122,
137,
135,
119,
134,
115,
133,
127,
131,
110,
125,
125,
116,
112,
98,
110,
126,
118,
120,
117,
123,
119,
139,
112,
130,
118,
103,
107,
101,
100,
110,
128,
126,
114,
108,
109,
128,
106,
89,
106,
111,
111,
105,
91,
107,
101,
107,
117,
107,
104,
110,
89,
116,
109,
105,
98,
102,
78,
88,
85,
84,
102,
92,
98,
85,
87,
81,
103,
97,
87,
89,
97,
111,
79,
82,
95,
100,
111,
93,
94,
86,
104,
89,
82,
75,
78,
96,
102,
88,
77,
82,
86,
88,
88,
86,
90,
77,
78,
77,
98,
86,
84,
85,
97,
75,
77,
66,
71,
62,
82,
73,
79,
78,
73,
70,
76,
65,
59,
63,
63,
80,
63,
97,
68,
63,
58,
65,
84,
73,
56,
57,
76,
58,
77,
82,
56,
70,
63,
70,
58,
78,
79,
65,
64,
61,
79,
68,
50,
73,
70,
61,
75,
59,
67,
68,
70,
58,
56,
71,
63,
62,
48,
59,
54,
53,
57,
58,
39,
62,
68,
53,
48,
62,
62,
59,
47,
54,
51,
56,
48,
44,
57,
59,
45,
57,
62,
46,
43,
62,
46,
42,
38,
65,
52,
52,
47,
56,
59,
48,
57,
51,
46,
54,
51,
57,
45,
46,
54,
53,
65,
57,
49,
56,
50,
60,
47,
54,
51,
44,
47,
47,
49,
49,
66,
45,
41,
53,
48,
46,
40,
36,
43,
51,
47,
48,
48,
44,
41,
44,
32,
38,
47,
42,
46,
50,
34,
35,
44,
42,
44,
39,
44,
41,
38,
44,
40,
38,
41,
37,
37,
49,
40,
39,
46,
37,
46,
40,
32,
38,
40,
36,
52,
47,
41,
44,
27,
31,
40,
32,
36,
34,
27,
44,
36,
30,
40,
34,
30,
42,
36,
36,
30,
40,
37,
29,
37,
36,
27,
40,
33,
34,
23,
33,
43,
30,
36,
35,
34,
26,
30,
33,
30,
14,
36,
31,
31,
35,
33,
37,
37,
28,
29,
34,
38,
29,
19,
26,
32,
27,
31,
38,
27,
27,
31,
21,
31,
28,
27,
25,
30,
20,
26,
33,
27,
32,
29,
19,
20,
25,
36,
37,
24,
19,
26,
22,
17,
32,
13,
13,
30,
29,
24,
33,
22,
24,
14,
22,
24,
31,
23,
15,
19,
25,
32,
29,
19,
21,
23,
21,
23,
18,
19,
19,
29,
21,
17,
20,
29,
21,
31,
23,
15,
15,
19,
19,
26,
18,
27,
15,
15,
16,
20,
22,
16,
16,
19,
17,
22,
15,
19,
12,
13,
20,
17,
23,
12,
13,
12,
21,
14,
16,
15,
19,
18,
16,
16,
11,
17,
8,
13,
15,
12,
11,
9,
15,
16,
12,
13,
9,
15,
17,
14,
17,
9,
13,
8,
19,
11,
12,
13,
12,
21,
14,
8,
11,
8,
15,
13,
10,
18,
10,
9,
13,
13,
13,
10,
10,
13,
12,
11,
10,
14,
12,
4,
9,
9,
16,
13,
11,
10,
11,
8,
13,
5,
12,
6,
10,
11,
11,
15,
8,
10,
10,
5,
8,
13,
8,
7,
4,
12,
9,
5,
11,
11,
6,
4,
9,
6,
10,
2,
12,
7,
10,
8,
7,
7,
4,
3,
13,
7,
8,
6,
10,
5,
8,
8,
5,
9,
7,
10,
4,
7,
7,
7,
10,
6,
5,
2,
12,
5,
4,
4,
6,
4,
9,
5,
3,
6,
6,
2,
2,
5,
5,
8,
7,
3,
5,
1,
5,
5,
4,
5,
2,
2,
4,
0,
5,
4,
3,
3,
3,
2,
3,
1,
3,
5,
4,
5,
2,
2,
3,
4,
2,
1,
3,
0,
1,
5,
2,
4,
2,
2,
3,
0,
1,
2,
2,
1,
0,
1,
2,
1,
1,
1,
1,
5,
2,
1,
3,
2,
2,
1,
2,
1,
2,
2,
0,
2,
1,
2,
0,
1,
0,
2,
1,
3,
0,
1,
1,
1,
1,
1,
0,
2,
0,
0,
0,
1,
0,
0,
0,
0,
1,
0,
0,
0,
0,
0,
0,
0,
0,
0,
0,
0,
0,
1,
0,
0,
0,
0,
0,
0,
0,
0,
0,
0,
0,
0,
0,
0,
0,
0,
0,
0,
0,
0,
0,
0,
0,
0,
0,
0,
0,
0,
0,
0,
0,
0,
0,
0,
0,
0,
0,
0,
0,
0,
0,
0,
0,
0,
0,
0,
0,
0,
0,
0,
0,
0,
0,
0,
0,
0,
0,
0,
0,
0,
0,
0,
0,
0,
0,
0,
0,
0,
0,
0,
0,
0,
0,
0,
0,
0,
0,
0,
0,
0,
0,
0,
0,
0,
0,
0,
0,
0,
0,
0,
0,
0,
0,
0,
0,
0,
0,
0,
0,
0,
0,
0,
0,
0,
0,
0,
0,
0,
0,
0,
0,
0,
0,
0,
0,
0,
0,
0,
0,
0,
0,
0,
0,
0,
0,
0,
0,
0,
0,
0,
0,
0,
0,
0,
0,
0,
0,
0,
0,
0,
0,
0,
0,
0,
0,
0,
0,
0,
0,
0,
0,
0,
0,
0,
0,
0,
0,
0,
0,
0,
0,
0,
0,
0,
0,
0,
0,
0,
0,
0,
0,
0,
0,
0,
0,
0,
0,
0,
0,
0,
0,
0,
0,
0,
0,
0,
0,
0,
0,
0,
0,
0,
0,
0,
0,
0,
0,
0,
0,
0,
0,
0,
0,
0,
0,
0,
0,
0,
0,
0,
0,
0,
0,
0,
0,
0,
0,
0,
0,
0,
0,
0,
0,
0,
0,
0,
0,
0,
0,
0,
0,
0,
0,
0,
0,
0,
0,
0,
0,
0,
0,
0,
0,
0,
0,
0,
0,
0,
0,
0,
0,
0,
0,
0,
0,
0,
0,
0,
0,
0,
0,
0,
0,
0,
0,
0,
0,
0,
0,
0,
0,
0,
0,
0,
0,
0,
0,
0,
0,
0,
0,
0,
0,
0,
0,
0,
0,
0,
0,
0,
0,
0,
0,
0,
0,
0,
0,
0,
0,
0,
0,
0,
0,
0,
0,
0,
0,
0,
0,
0,
0,
0,
0,
0,
0,
0,
0,
0,
0,
0,
0,
0,
0,
0,
#ENDOFDATA   :