File: notebook/K309/Fe std.msa
#FORMAT      : EMSA/MAS Spectral Data File
#VERSION     : 1.0
#TITLE       : Bruker AXS spectrum Fe
#DATE        : 29-JUL-2008
#TIME        : 10:20
#OWNER       : Bruker AXS
#NPOINTS     : 4096
#NCOLUMNS    : 1
#XUNITS      : eV
#YUNITS      : counts
#DATATYPE    : Y
#XPERCHAN    : 5.00409
#OFFSET      : -477.824
#BEAMKV      : 15
#SIGNALTYPE  : EDS
#ELEVANGLE   : 40
#AZIMANGLE   : 180
#LIVETIME    : 59.355
#REALTIME    : 63.325
#PROBECUR    : 2.5
#TDEADLYR    : 0.00001
#TACTLYR     : 0.045
#TALWIND     : 0.003
#CHOFFSET    : 0.0
#XLABEL      : Energy (eV)
#YLABEL      : Counts
#EDSDET      : SDDUTW
##D2STDCMP   : Fe,(Fe:100.0),7.87
##DET_HASH   : 787abefa-8318-6950-113a-0b12cd5d2e3f
##CALIB_HASH : 45cbf5b2-c271-a5d0-4379-a0c92e937fd3
#SPECTRUM    :
0,
0,
0,
0,
0,
0,
0,
0,
0,
0,
0,
0,
0,
0,
0,
0,
0,
0,
0,
0,
0,
0,
0,
0,
0,
0,
0,
7,
202,
3584,
30202,
95679,
115196,
53854,
9881,
335,
0,
3,
98,
136,
126,
125,
132,
141,
164,
201,
234,
305,
383,
498,
536,
446,
324,
270,
291,
356,
383,
433,
457,
506,
540,
566,
657,
798,
882,
999,
1123,
1189,
1272,
1687,
2753,
4870,
7402,
8234,
7056,
6066,
7769,
13322,
19528,
20893,
15557,
8120,
2972,
1146,
599,
495,
380,
358,
319,
329,
296,
317,
329,
357,
383,
314,
352,
433,
393,
384,
413,
474,
414,
421,
456,
441,
492,
476,
556,
465,
487,
477,
511,
533,
528,
553,
522,
529,
540,
514,
545,
587,
570,
565,
560,
584,
600,
566,
599,
602,
584,
612,
633,
647,
602,
573,
608,
636,
570,
564,
612,
596,
603,
631,
613,
601,
635,
635,
694,
645,
627,
619,
693,
658,
638,
632,
652,
635,
631,
631,
618,
594,
638,
628,
615,
632,
612,
642,
626,
609,
631,
597,
626,
661,
619,
620,
651,
639,
615,
584,
617,
604,
645,
589,
590,
609,
616,
599,
583,
551,
572,
601,
616,
572,
578,
596,
580,
630,
602,
565,
551,
586,
556,
569,
588,
626,
554,
574,
544,
573,
572,
540,
577,
560,
551,
582,
596,
509,
517,
532,
511,
514,
551,
519,
553,
488,
539,
484,
537,
528,
481,
502,
480,
500,
508,
482,
498,
505,
501,
548,
497,
498,
497,
480,
460,
475,
449,
453,
453,
509,
439,
454,
476,
472,
437,
428,
405,
464,
451,
422,
424,
441,
410,
418,
427,
437,
446,
424,
421,
439,
438,
423,
431,
384,
422,
395,
426,
420,
405,
388,
373,
412,
411,
385,
423,
401,
392,
411,
378,
362,
399,
371,
417,
368,
388,
396,
394,
342,
390,
358,
334,
354,
391,
373,
328,
366,
326,
330,
358,
344,
362,
339,
344,
320,
328,
343,
337,
341,
324,
333,
313,
321,
348,
332,
323,
326,
338,
304,
326,
304,
324,
308,
317,
288,
335,
306,
313,
269,
299,
305,
283,
293,
289,
315,
297,
302,
312,
330,
317,
298,
291,
324,
286,
325,
280,
306,
276,
281,
281,
291,
283,
261,
296,
270,
256,
258,
271,
287,
275,
273,
306,
262,
251,
264,
274,
250,
263,
242,
214,
261,
251,
251,
237,
279,
240,
261,
265,
245,
268,
249,
264,
236,
250,
275,
245,
279,
254,
256,
258,
229,
237,
238,
239,
248,
252,
236,
236,
236,
201,
247,
219,
218,
219,
202,
193,
199,
244,
220,
239,
219,
205,
217,
193,
198,
200,
186,
220,
197,
224,
214,
206,
218,
215,
229,
183,
218,
233,
187,
252,
235,
205,
211,
213,
211,
222,
246,
267,
340,
468,
733,
1144,
1895,
2933,
4408,
6250,
8271,
10142,
11765,
12580,
12526,
11446,
9769,
7727,
5847,
4093,
2687,
1646,
1021,
633,
358,
286,
236,
206,
209,
169,
191,
187,
174,
170,
168,
164,
187,
185,
170,
168,
185,
187,
201,
213,
186,
202,
220,
245,
291,
422,
500,
646,
910,
1079,
1329,
1549,
1633,
1658,
1709,
1527,
1352,
1128,
805,
633,
459,
319,
240,
197,
179,
138,
132,
116,
108,
126,
117,
121,
139,
114,
111,
109,
128,
128,
114,
116,
118,
101,
115,
107,
121,
114,
110,
111,
125,
101,
110,
130,
122,
123,
113,
110,
107,
103,
108,
119,
125,
114,
94,
113,
122,
102,
102,
120,
99,
125,
120,
93,
89,
110,
109,
108,
100,
110,
91,
127,
95,
105,
115,
105,
85,
93,
99,
110,
105,
99,
100,
100,
110,
102,
105,
116,
97,
102,
104,
104,
98,
94,
102,
93,
108,
112,
93,
114,
96,
106,
73,
84,
115,
78,
72,
85,
84,
86,
104,
84,
84,
86,
82,
82,
109,
85,
87,
91,
84,
77,
102,
94,
107,
91,
93,
71,
91,
85,
95,
90,
83,
79,
85,
92,
86,
76,
94,
70,
78,
77,
94,
67,
83,
73,
72,
69,
95,
78,
79,
90,
96,
76,
65,
76,
67,
74,
64,
76,
60,
73,
71,
74,
73,
66,
80,
67,
65,
72,
73,
72,
73,
73,
67,
75,
63,
67,
69,
66,
61,
85,
68,
69,
67,
72,
81,
60,
68,
63,
66,
73,
62,
70,
72,
70,
76,
68,
61,
70,
59,
69,
69,
70,
75,
67,
59,
65,
66,
62,
59,
62,
65,
63,
49,
55,
41,
64,
61,
61,
83,
74,
62,
53,
60,
48,
62,
39,
52,
60,
42,
61,
66,
47,
64,
47,
45,
55,
53,
46,
61,
46,
51,
52,
45,
47,
50,
35,
46,
53,
52,
54,
40,
43,
48,
47,
54,
50,
49,
37,
44,
39,
51,
36,
36,
45,
52,
39,
43,
42,
45,
40,
52,
46,
35,
43,
44,
46,
40,
56,
35,
31,
40,
44,
40,
38,
38,
40,
35,
47,
39,
48,
38,
31,
37,
41,
31,
34,
38,
38,
31,
29,
30,
42,
39,
47,
33,
33,
34,
31,
34,
41,
30,
26,
38,
21,
40,
35,
26,
31,
29,
38,
35,
39,
39,
34,
28,
19,
31,
28,
29,
36,
33,
22,
21,
27,
27,
32,
33,
35,
33,
18,
29,
34,
31,
21,
25,
32,
21,
24,
28,
21,
27,
22,
22,
25,
29,
24,
23,
30,
21,
19,
36,
36,
22,
17,
22,
19,
26,
28,
23,
27,
26,
28,
20,
29,
24,
23,
19,
19,
22,
25,
27,
28,
20,
27,
20,
23,
19,
21,
21,
20,
21,
22,
25,
22,
19,
17,
16,
16,
15,
13,
19,
17,
21,
13,
11,
22,
16,
12,
18,
16,
11,
14,
7,
18,
17,
13,
16,
7,
14,
12,
18,
12,
9,
11,
15,
13,
9,
12,
12,
10,
14,
8,
14,
20,
15,
8,
10,
9,
7,
11,
12,
16,
10,
10,
15,
9,
12,
10,
9,
12,
20,
12,
13,
11,
11,
11,
13,
10,
8,
9,
8,
13,
5,
15,
6,
7,
6,
9,
12,
8,
6,
5,
2,
5,
6,
5,
6,
3,
8,
6,
4,
5,
5,
6,
5,
7,
4,
4,
7,
9,
7,
5,
3,
3,
9,
1,
4,
8,
4,
4,
1,
6,
4,
4,
5,
0,
3,
3,
3,
5,
1,
3,
2,
7,
1,
0,
0,
2,
2,
2,
1,
0,
0,
2,
1,
5,
0,
0,
0,
0,
1,
2,
1,
1,
1,
1,
0,
2,
0,
0,
0,
0,
0,
0,
0,
0,
0,
0,
0,
0,
0,
0,
0,
0,
0,
0,
0,
0,
0,
0,
0,
0,
0,
0,
0,
0,
0,
0,
0,
0,
0,
1,
0,
0,
0,
0,
0,
0,
0,
0,
0,
0,
0,
0,
0,
0,
0,
0,
0,
0,
0,
0,
0,
0,
0,
0,
0,
0,
0,
0,
0,
0,
0,
0,
0,
0,
0,
0,
0,
0,
0,
0,
0,
0,
0,
0,
1,
0,
0,
0,
0,
0,
0,
0,
0,
0,
0,
0,
0,
0,
0,
0,
0,
0,
0,
0,
0,
0,
0,
0,
0,
0,
0,
0,
0,
0,
0,
0,
0,
0,
0,
0,
0,
0,
0,
0,
0,
0,
0,
0,
0,
0,
0,
0,
0,
0,
1,
0,
0,
0,
0,
0,
0,
0,
0,
0,
0,
0,
0,
0,
0,
0,
0,
0,
0,
0,
0,
0,
0,
0,
0,
0,
0,
0,
0,
0,
0,
0,
0,
0,
0,
0,
0,
0,
0,
0,
0,
0,
0,
0,
0,
0,
0,
0,
0,
0,
0,
0,
0,
0,
0,
0,
0,
0,
0,
0,
0,
0,
0,
0,
0,
0,
1,
0,
0,
1,
0,
0,
0,
0,
0,
0,
0,
0,
0,
0,
0,
0,
0,
0,
0,
0,
0,
0,
0,
0,
0,
0,
0,
0,
0,
0,
0,
1,
0,
0,
0,
0,
0,
0,
0,
0,
0,
0,
0,
0,
0,
0,
0,
0,
0,
0,
0,
0,
0,
0,
0,
0,
0,
0,
0,
0,
0,
0,
0,
0,
0,
0,
0,
0,
0,
0,
0,
0,
0,
0,
0,
0,
0,
0,
0,
0,
0,
0,
0,
0,
0,
0,
0,
0,
0,
0,
0,
0,
0,
0,
0,
0,
0,
0,
0,
0,
0,
0,
0,
0,
0,
0,
0,
0,
0,
0,
0,
0,
0,
0,
0,
0,
0,
0,
1,
0,
0,
1,
0,
0,
0,
0,
0,
0,
0,
0,
0,
0,
0,
0,
0,
#ENDOFDATA   :